onset	duration	trial_type	onset_response	response_time	news_no	news_type	value
0.033	4.966	intro&rest	n/a	n/a	n/a	n/a	n/a
5.099	17.9	sharingrating1	23.099	3	117	R	3
26.132	1.838	fixations	n/a	n/a	n/a	n/a	n/a
28.082	17.888	sharingrating1	46.064	3	130	F	5
49.098	1.556	fixations	n/a	n/a	n/a	n/a	n/a
50.764	17.89	sharingrating1	68.764	3	29	R	2
71.797	2.099	fixations	n/a	n/a	n/a	n/a	n/a
73.997	17.899	sharingrating1	91.996	3	37	F	2
95.03	2.605	fixations	n/a	n/a	n/a	n/a	n/a
97.729	17.906	sharingrating1	115.729	3	132	F	5
118.762	2.251	fixations	n/a	n/a	n/a	n/a	n/a
121.095	17.918	sharingrating1	139.112	3	87	F	2
142.145	2.396	fixations	n/a	n/a	n/a	n/a	n/a
144.645	17.896	sharingrating1	162.644	3	11	R	1
165.677	2.049	fixations	n/a	n/a	n/a	n/a	n/a
167.827	17.899	sharingrating1	185.827	3	21	R	2
188.86	2.5	fixations	n/a	n/a	n/a	n/a	n/a
191.46	17.9	sharingrating1	209.459	3	110	R	5
212.493	1.513	fixations	n/a	n/a	n/a	n/a	n/a
214.109	17.897	sharingrating1	232.109	3	8	R	2
235.142	1.886	fixations	n/a	n/a	n/a	n/a	n/a
237.125	17.903	sharingrating1	255.125	3	2	R	5
258.158	2.907	fixations	n/a	n/a	n/a	n/a	n/a
261.158	17.907	sharingrating1	279.157	3	13	R	2
282.19	1.405	fixations	n/a	n/a	n/a	n/a	n/a
283.707	17.888	sharingrating1	301.69	3	98	R	3
304.723	2.962	fixations	n/a	n/a	n/a	n/a	n/a
307.79	17.895	sharingrating1	325.789	3	51	F	6
328.722	2.05	fixations	n/a	n/a	n/a	n/a	n/a
330.872	17.9	sharingrating1	348.872	3	18	R	1
351.905	1.87	fixations	n/a	n/a	n/a	n/a	n/a
353.872	17.903	sharingrating1	371.871	3	35	F	4
374.904	2.359	fixations	n/a	n/a	n/a	n/a	n/a
377.354	17.909	sharingrating1	395.354	3	49	F	2
398.387	2.059	fixations	n/a	n/a	n/a	n/a	n/a
400.537	17.909	sharingrating1	418.536	3	71	F	5
421.569	2.18	fixations	n/a	n/a	n/a	n/a	n/a
423.836	17.913	sharingrating1	441.852	3	40	F	4
444.885	1.829	fixations	n/a	n/a	n/a	n/a	n/a
446.819	17.895	sharingrating1	464.818	3	123	F	1
467.851	1.399	fixations	n/a	n/a	n/a	n/a	n/a
469.351	17.899	sharingrating1	487.351	3	68	F	5
490.384	1.472	fixations	n/a	n/a	n/a	n/a	n/a
491.967	17.889	sharingrating1	509.95	3	50	F	5
512.983	2.24	fixations	n/a	n/a	n/a	n/a	n/a
515.317	17.906	sharingrating1	533.316	3	78	F	5
536.349	2.241	fixations	n/a	n/a	n/a	n/a	n/a
538.682	17.908	sharingrating1	556.699	3	42	F	2
559.732	2.016	fixations	n/a	n/a	n/a	n/a	n/a
561.848	17.9	sharingrating1	579.848	3	22	R	2
582.881	1.419	fixations	n/a	n/a	n/a	n/a	n/a
584.398	17.902	sharingrating1	602.397	3	17	R	1
605.43	1.418	fixations	n/a	n/a	n/a	n/a	n/a
606.947	17.901	sharingrating1	624.946	3	97	R	1
627.98	2.085	fixations	n/a	n/a	n/a	n/a	n/a
630.163	17.902	sharingrating1	648.162	3	43	F	5
651.196	1.527	fixations	n/a	n/a	n/a	n/a	n/a
652.812	17.911	sharingrating1	670.828	3	133	F	2
673.862	1.433	fixations	n/a	n/a	n/a	n/a	n/a
675.395	17.9	sharingrating1	693.394	3	93	R	2
696.428	2.005	fixations	n/a	n/a	n/a	n/a	n/a
698.528	17.905	sharingrating1	716.544	3	111	R	3
719.577	1.469	fixations	n/a	n/a	n/a	n/a	n/a
721.127	17.919	sharingrating1	739.143	3	67	F	2
742.176	1.764	fixations	n/a	n/a	n/a	n/a	n/a
744.043	17.897	sharingrating1	762.042	3	109	R	3
765.076	2.721	fixations	n/a	n/a	n/a	n/a	n/a
767.892	17.905	sharingrating1	785.891	3	83	F	2
788.925	1.419	fixations	n/a	n/a	n/a	n/a	n/a
790.425	17.919	sharingrating1	808.441	3	7	R	6
811.374	2.77	fixations	n/a	n/a	n/a	n/a	n/a
814.241	17.903	sharingrating1	832.257	3	129	F	6
835.29	2.181	fixations	n/a	n/a	n/a	n/a	n/a
837.557	17.914	sharingrating1	855.556	3	122	F	4
858.589	1.752	fixations	n/a	n/a	n/a	n/a	n/a
860.439	17.902	sharingrating1	878.439	3	120	R	2
881.472	2.748	fixations	n/a	n/a	n/a	n/a	n/a
884.305	17.915	sharingrating1	902.305	3	23	R	6
905.338	1.175	fixations	n/a	n/a	n/a	n/a	n/a
906.604	17.909	sharingrating1	924.621	3	19	R	1
927.537	1.074	fixations	n/a	n/a	n/a	n/a	n/a
928.654	2.957	intro&rest	n/a	n/a	n/a	n/a	n/a
931.637	4.974	intro&rest	n/a	n/a	n/a	n/a	n/a
936.703	17.908	accuracyrating	954.703	3	79	F	2
957.736	2.249	fixations	n/a	n/a	n/a	n/a	n/a
960.086	17.899	accuracyrating	978.086	3	96	R	5
981.119	1.295	fixations	n/a	n/a	n/a	n/a	n/a
982.502	17.912	accuracyrating	1000.518	3	38	F	3
1003.551	1.998	fixations	n/a	n/a	n/a	n/a	n/a
1005.651	17.898	accuracyrating	1023.651	3	55	F	3
1026.684	1.764	fixations	n/a	n/a	n/a	n/a	n/a
1028.551	17.897	accuracyrating	1046.55	3	15	R	2
1049.583	2.409	fixations	n/a	n/a	n/a	n/a	n/a
1052.083	17.909	accuracyrating	1070.083	3	81	F	2
1073.116	1.427	fixations	n/a	n/a	n/a	n/a	n/a
1074.633	17.91	accuracyrating	1092.649	3	1	R	3
1095.682	1.619	fixations	n/a	n/a	n/a	n/a	n/a
1097.399	17.902	accuracyrating	1115.398	3	32	F	1
1118.431	1.758	fixations	n/a	n/a	n/a	n/a	n/a
1120.315	17.874	accuracyrating	1138.314	3	25	R	6
1141.347	2.333	fixations	n/a	n/a	n/a	n/a	n/a
1143.797	17.883	accuracyrating	1161.78	3	70	F	5
1164.813	2.392	fixations	n/a	n/a	n/a	n/a	n/a
1167.313	17.892	accuracyrating	1185.312	3	95	R	5
1188.229	1.384	fixations	n/a	n/a	n/a	n/a	n/a
1189.729	17.884	accuracyrating	1207.712	3	106	R	3
1210.745	2.118	fixations	n/a	n/a	n/a	n/a	n/a
1212.978	17.885	accuracyrating	1230.961	3	4	R	2
1233.994	2.657	fixations	n/a	n/a	n/a	n/a	n/a
1236.761	17.89	accuracyrating	1254.744	3	31	F	1
1257.777	2.32	fixations	n/a	n/a	n/a	n/a	n/a
1260.193	17.904	accuracyrating	1278.193	3	47	F	2
1281.226	2.499	fixations	n/a	n/a	n/a	n/a	n/a
1283.826	17.899	accuracyrating	1301.826	3	12	R	3
1304.759	1.653	fixations	n/a	n/a	n/a	n/a	n/a
1306.525	17.887	accuracyrating	1324.508	3	9	R	2
1327.541	1.954	fixations	n/a	n/a	n/a	n/a	n/a
1329.591	17.904	accuracyrating	1347.591	3	26	R	6
1350.624	2.188	fixations	n/a	n/a	n/a	n/a	n/a
1352.907	17.905	accuracyrating	1370.907	3	86	F	2
1373.94	1.788	fixations	n/a	n/a	n/a	n/a	n/a
1375.823	17.905	accuracyrating	1393.823	3	64	F	3
1396.856	1.525	fixations	n/a	n/a	n/a	n/a	n/a
1398.422	2.959	intro&rest	n/a	n/a	n/a	n/a	n/a
1401.406	4.975	intro&rest	n/a	n/a	n/a	n/a	n/a
1406.472	17.909	sharingrating2	1424.472	3	66	F	3
1427.605	2.236	fixations	n/a	n/a	n/a	n/a	n/a
1429.938	17.903	sharingrating2	1447.938	3	69	F	2
1450.971	1.396	fixations	n/a	n/a	n/a	n/a	n/a
1452.471	17.896	sharingrating2	1470.47	3	30	R	4
1473.404	2.624	fixations	n/a	n/a	n/a	n/a	n/a
1476.137	17.891	sharingrating2	1494.12	3	88	F	3
1497.153	1.266	fixations	n/a	n/a	n/a	n/a	n/a
1498.519	17.9	sharingrating2	1516.519	3	39	F	5
1519.552	1.253	fixations	n/a	n/a	n/a	n/a	n/a
1520.902	17.903	sharingrating2	1538.901	3	16	R	5
1541.935	2.314	fixations	n/a	n/a	n/a	n/a	n/a
1544.335	17.914	sharingrating2	1562.351	3	20	R	1
1565.384	1.856	fixations	n/a	n/a	n/a	n/a	n/a
1567.334	17.906	sharingrating2	1585.333	3	73	F	2
1588.367	1.988	fixations	n/a	n/a	n/a	n/a	n/a
1590.45	17.905	sharingrating2	1608.449	3	14	R	2
1611.483	1.803	fixations	n/a	n/a	n/a	n/a	n/a
1613.383	17.903	sharingrating2	1631.382	3	44	F	6
1634.415	1.616	fixations	n/a	n/a	n/a	n/a	n/a
1636.132	17.899	sharingrating2	1654.131	3	101	R	4
1657.165	1.355	fixations	n/a	n/a	n/a	n/a	n/a
1658.614	17.906	sharingrating2	1676.614	3	6	R	2
1679.647	1.524	fixations	n/a	n/a	n/a	n/a	n/a
1681.281	17.89	sharingrating2	1699.28	3	45	F	4
1702.313	2.799	fixations	n/a	n/a	n/a	n/a	n/a
1705.213	17.899	sharingrating2	1723.212	3	65	F	3
1726.246	2.042	fixations	n/a	n/a	n/a	n/a	n/a
1728.379	17.909	sharingrating2	1746.378	3	34	F	6
1749.412	1.969	fixations	n/a	n/a	n/a	n/a	n/a
1751.478	17.903	sharingrating2	1769.478	3	99	R	3
1772.511	2.397	fixations	n/a	n/a	n/a	n/a	n/a
1775.011	17.897	sharingrating2	1793.01	3	41	F	5
1795.944	2.221	fixations	n/a	n/a	n/a	n/a	n/a
1798.26	17.905	sharingrating2	1816.26	3	3	R	2
1819.293	1.894	fixations	n/a	n/a	n/a	n/a	n/a
1821.277	17.91	sharingrating2	1839.292	3	5	R	2
1842.209	2.297	fixations	n/a	n/a	n/a	n/a	n/a
1844.609	17.897	sharingrating2	1862.608	3	10	R	2
1865.642	2.37	fixations	n/a	n/a	n/a	n/a	n/a
1868.041	1.971	intro&rest	n/a	n/a	n/a	n/a	n/a
