onset	duration	trial_type	onset_response	response_time	news_no	news_type	value
0.03	4.969	intro&rest	n/a	n/a	n/a	n/a	n/a
5.096	17.903	sharingrating1	23.096	3	37	F	1
26.129	2.606	fixations	n/a	n/a	n/a	n/a	n/a
28.845	17.89	sharingrating1	46.845	3	98	R	1
49.761	2.97	fixations	n/a	n/a	n/a	n/a	n/a
52.828	17.903	sharingrating1	70.827	3	97	R	4
73.861	2.085	fixations	n/a	n/a	n/a	n/a	n/a
76.044	17.902	sharingrating1	94.043	3	51	F	5
97.077	2.052	fixations	n/a	n/a	n/a	n/a	n/a
99.227	17.902	sharingrating1	117.226	3	7	R	1
120.259	2.766	fixations	n/a	n/a	n/a	n/a	n/a
123.126	17.899	sharingrating1	141.125	3	22	R	2
144.159	1.418	fixations	n/a	n/a	n/a	n/a	n/a
145.675	17.902	sharingrating1	163.675	3	35	F	5
166.708	2.359	fixations	n/a	n/a	n/a	n/a	n/a
169.158	17.909	sharingrating1	187.157	3	11	R	5
190.191	2.048	fixations	n/a	n/a	n/a	n/a	n/a
192.34	17.899	sharingrating1	210.34	3	83	F	3
213.373	1.42	fixations	n/a	n/a	n/a	n/a	n/a
214.89	17.903	sharingrating1	232.889	3	78	F	6
235.922	2.241	fixations	n/a	n/a	n/a	n/a	n/a
238.256	17.907	sharingrating1	256.255	3	21	R	2
259.288	2.5	fixations	n/a	n/a	n/a	n/a	n/a
261.888	17.9	sharingrating1	279.888	3	111	R	1
282.821	1.47	fixations	n/a	n/a	n/a	n/a	n/a
284.388	17.903	sharingrating1	302.387	3	18	R	2
305.42	1.87	fixations	n/a	n/a	n/a	n/a	n/a
307.387	17.903	sharingrating1	325.386	3	109	R	2
328.42	2.721	fixations	n/a	n/a	n/a	n/a	n/a
331.236	17.905	sharingrating1	349.236	3	123	F	3
352.169	1.405	fixations	n/a	n/a	n/a	n/a	n/a
353.653	17.921	sharingrating1	371.668	3	122	F	4
374.701	1.752	fixations	n/a	n/a	n/a	n/a	n/a
376.551	17.902	sharingrating1	394.551	3	19	R	3
397.584	1.064	fixations	n/a	n/a	n/a	n/a	n/a
398.751	17.897	sharingrating1	416.75	3	117	R	5
419.684	1.836	fixations	n/a	n/a	n/a	n/a	n/a
421.65	17.87	sharingrating1	439.616	3	132	F	5
442.649	2.251	fixations	n/a	n/a	n/a	n/a	n/a
444.999	17.901	sharingrating1	462.999	3	130	F	5
465.932	1.559	fixations	n/a	n/a	n/a	n/a	n/a
467.615	17.876	sharingrating1	485.598	3	129	F	6
488.631	2.181	fixations	n/a	n/a	n/a	n/a	n/a
490.915	17.897	sharingrating1	508.914	3	42	F	6
511.947	2.016	fixations	n/a	n/a	n/a	n/a	n/a
514.081	17.882	sharingrating1	532.063	3	13	R	5
535.097	1.404	fixations	n/a	n/a	n/a	n/a	n/a
536.613	17.888	sharingrating1	554.596	3	43	F	2
557.629	1.528	fixations	n/a	n/a	n/a	n/a	n/a
559.246	17.911	sharingrating1	577.245	3	23	R	1
580.279	1.174	fixations	n/a	n/a	n/a	n/a	n/a
581.562	17.891	sharingrating1	599.545	3	133	F	1
602.578	1.434	fixations	n/a	n/a	n/a	n/a	n/a
604.111	17.901	sharingrating1	622.111	3	87	F	2
625.144	2.396	fixations	n/a	n/a	n/a	n/a	n/a
627.644	17.896	sharingrating1	645.643	3	68	F	2
648.677	1.471	fixations	n/a	n/a	n/a	n/a	n/a
650.26	17.888	sharingrating1	668.259	3	8	R	2
671.176	1.892	fixations	n/a	n/a	n/a	n/a	n/a
673.159	17.909	sharingrating1	691.158	3	71	F	6
694.092	2.19	fixations	n/a	n/a	n/a	n/a	n/a
696.375	17.907	sharingrating1	714.374	3	67	F	6
717.408	1.763	fixations	n/a	n/a	n/a	n/a	n/a
719.258	17.913	sharingrating1	737.257	3	40	F	3
740.29	1.829	fixations	n/a	n/a	n/a	n/a	n/a
742.224	17.895	sharingrating1	760.223	3	110	R	2
763.256	1.514	fixations	n/a	n/a	n/a	n/a	n/a
764.873	17.897	sharingrating1	782.872	3	49	F	2
785.906	2.058	fixations	n/a	n/a	n/a	n/a	n/a
788.072	17.892	sharingrating1	806.072	3	50	F	3
809.105	2.24	fixations	n/a	n/a	n/a	n/a	n/a
811.455	17.89	sharingrating1	829.438	3	93	R	2
832.471	2.006	fixations	n/a	n/a	n/a	n/a	n/a
834.571	17.906	sharingrating1	852.57	3	120	R	2
855.603	2.748	fixations	n/a	n/a	n/a	n/a	n/a
858.453	17.898	sharingrating1	876.453	3	17	R	2
879.486	1.418	fixations	n/a	n/a	n/a	n/a	n/a
881.019	17.885	sharingrating1	899.002	3	2	R	2
902.036	2.906	fixations	n/a	n/a	n/a	n/a	n/a
905.035	17.907	sharingrating1	923.035	3	29	R	4
925.968	2.107	fixations	n/a	n/a	n/a	n/a	n/a
928.118	2.957	intro&rest	n/a	n/a	n/a	n/a	n/a
931.101	4.974	intro&rest	n/a	n/a	n/a	n/a	n/a
936.168	17.907	accuracyrating	954.167	3	15	R	3
957.1	2.418	fixations	n/a	n/a	n/a	n/a	n/a
959.617	17.901	accuracyrating	977.617	3	64	F	6
980.65	1.525	fixations	n/a	n/a	n/a	n/a	n/a
982.283	17.892	accuracyrating	1000.282	3	95	R	4
1003.316	1.373	fixations	n/a	n/a	n/a	n/a	n/a
1004.782	17.907	accuracyrating	1022.782	3	12	R	6
1025.815	1.653	fixations	n/a	n/a	n/a	n/a	n/a
1027.565	17.903	accuracyrating	1045.564	3	47	F	6
1048.598	2.498	fixations	n/a	n/a	n/a	n/a	n/a
1051.214	17.882	accuracyrating	1069.197	3	25	R	5
1072.23	2.333	fixations	n/a	n/a	n/a	n/a	n/a
1074.68	17.883	accuracyrating	1092.663	3	106	R	6
1095.696	2.118	fixations	n/a	n/a	n/a	n/a	n/a
1097.913	17.901	accuracyrating	1115.912	3	81	F	5
1118.945	1.427	fixations	n/a	n/a	n/a	n/a	n/a
1120.462	17.91	accuracyrating	1138.462	3	26	R	5
1141.495	2.188	fixations	n/a	n/a	n/a	n/a	n/a
1143.778	17.905	accuracyrating	1161.778	3	9	R	5
1164.811	1.954	fixations	n/a	n/a	n/a	n/a	n/a
1166.861	17.904	accuracyrating	1184.877	3	55	F	5
1187.91	1.764	fixations	n/a	n/a	n/a	n/a	n/a
1189.777	17.897	accuracyrating	1207.776	3	86	F	5
1210.809	1.788	fixations	n/a	n/a	n/a	n/a	n/a
1212.709	17.888	accuracyrating	1230.709	3	32	F	5
1233.742	1.758	fixations	n/a	n/a	n/a	n/a	n/a
1235.609	17.891	accuracyrating	1253.591	3	70	F	6
1256.625	2.391	fixations	n/a	n/a	n/a	n/a	n/a
1259.125	17.891	accuracyrating	1277.124	3	4	R	6
1280.157	2.657	fixations	n/a	n/a	n/a	n/a	n/a
1282.907	17.907	accuracyrating	1300.907	3	96	R	6
1303.94	1.295	fixations	n/a	n/a	n/a	n/a	n/a
1305.34	17.895	accuracyrating	1323.339	3	1	R	5
1326.373	1.618	fixations	n/a	n/a	n/a	n/a	n/a
1328.089	17.902	accuracyrating	1346.089	3	79	F	4
1349.022	2.252	fixations	n/a	n/a	n/a	n/a	n/a
1351.372	17.902	accuracyrating	1369.371	3	31	F	5
1372.404	2.32	fixations	n/a	n/a	n/a	n/a	n/a
1374.821	17.903	accuracyrating	1392.82	3	38	F	5
1395.854	1.997	fixations	n/a	n/a	n/a	n/a	n/a
1397.887	2.964	intro&rest	n/a	n/a	n/a	n/a	n/a
1400.887	4.964	intro&rest	n/a	n/a	n/a	n/a	n/a
1405.953	17.898	sharingrating2	1423.953	3	16	R	6
1426.886	2.314	fixations	n/a	n/a	n/a	n/a	n/a
1429.286	17.914	sharingrating2	1447.302	3	34	F	6
1450.335	1.97	fixations	n/a	n/a	n/a	n/a	n/a
1452.402	17.903	sharingrating2	1470.401	3	69	F	4
1473.435	1.395	fixations	n/a	n/a	n/a	n/a	n/a
1474.918	17.912	sharingrating2	1492.934	3	88	F	1
1495.867	1.263	fixations	n/a	n/a	n/a	n/a	n/a
1497.218	17.912	sharingrating2	1515.233	3	30	R	1
1518.167	2.624	fixations	n/a	n/a	n/a	n/a	n/a
1520.9	17.891	sharingrating2	1538.883	3	39	F	4
1541.916	1.253	fixations	n/a	n/a	n/a	n/a	n/a
1543.266	17.903	sharingrating2	1561.265	3	10	R	2
1564.299	2.37	fixations	n/a	n/a	n/a	n/a	n/a
1566.765	17.904	sharingrating2	1584.765	3	3	R	2
1587.798	1.894	fixations	n/a	n/a	n/a	n/a	n/a
1589.781	17.911	sharingrating2	1607.781	3	6	R	5
1610.814	1.524	fixations	n/a	n/a	n/a	n/a	n/a
1612.43	17.908	sharingrating2	1630.43	3	65	F	5
1633.463	2.043	fixations	n/a	n/a	n/a	n/a	n/a
1635.613	17.893	sharingrating2	1653.612	3	14	R	5
1656.529	1.815	fixations	n/a	n/a	n/a	n/a	n/a
1658.446	17.898	sharingrating2	1676.445	3	99	R	2
1679.512	2.363	fixations	n/a	n/a	n/a	n/a	n/a
1681.962	17.913	sharingrating2	1699.978	3	44	F	6
1703.011	1.616	fixations	n/a	n/a	n/a	n/a	n/a
1704.728	17.899	sharingrating2	1722.727	3	73	F	5
1725.76	1.989	fixations	n/a	n/a	n/a	n/a	n/a
1727.843	17.906	sharingrating2	1745.843	3	5	R	2
1748.876	2.285	fixations	n/a	n/a	n/a	n/a	n/a
1751.243	17.918	sharingrating2	1769.242	3	66	F	4
1772.275	2.336	fixations	n/a	n/a	n/a	n/a	n/a
1774.709	17.902	sharingrating2	1792.708	3	101	R	2
1795.741	1.356	fixations	n/a	n/a	n/a	n/a	n/a
1797.191	17.906	sharingrating2	1815.191	3	20	R	6
1818.124	1.863	fixations	n/a	n/a	n/a	n/a	n/a
1820.074	17.913	sharingrating2	1838.073	3	41	F	6
1841.123	2.206	fixations	n/a	n/a	n/a	n/a	n/a
1843.423	17.906	sharingrating2	1861.423	3	45	F	6
1864.356	2.806	fixations	n/a	n/a	n/a	n/a	n/a
1867.189	1.973	intro&rest	n/a	n/a	n/a	n/a	n/a
