onset	duration	trial_type	onset_response	response_time	news_no	news_real/fake	value
5.104	17.895	sharingrating1	23.104	3	129	F	5
28.42	17.898	sharingrating1	46.42	3	42	F	2
51.553	17.916	sharingrating1	69.552	3	122	F	6
74.436	17.901	sharingrating1	92.435	3	111	R	5
97.035	17.902	sharingrating1	115.034	3	21	R	5
120.667	17.9	sharingrating1	138.667	3	97	R	4
143.883	17.903	sharingrating1	161.883	3	120	R	5
167.766	17.898	sharingrating1	185.766	3	109	R	1
191.615	17.906	sharingrating1	209.615	3	93	R	5
214.765	17.889	sharingrating1	232.748	3	18	R	1
237.748	17.903	sharingrating1	255.747	3	35	F	5
261.23	17.909	sharingrating1	279.229	3	7	R	1
285.129	17.899	sharingrating1	303.129	3	133	F	3
307.695	17.901	sharingrating1	325.694	3	68	F	5
330.294	17.905	sharingrating1	348.294	3	87	F	5
353.827	17.896	sharingrating1	371.826	3	83	F	5
376.376	17.903	sharingrating1	394.376	3	117	R	3
399.342	17.905	sharingrating1	417.342	3	22	R	4
421.875	17.919	sharingrating1	439.891	3	40	F	4
444.857	17.896	sharingrating1	462.857	3	43	F	4
467.507	17.911	sharingrating1	485.523	3	51	F	5
490.706	17.903	sharingrating1	508.706	3	29	R	5
513.939	17.899	sharingrating1	531.938	3	37	F	2
537.671	17.906	sharingrating1	555.671	3	11	R	6
560.837	17.916	sharingrating1	578.837	3	23	R	2
583.137	17.908	sharingrating1	601.153	3	78	F	6
606.519	17.908	sharingrating1	624.519	3	13	R	1
629.052	17.905	sharingrating1	647.051	3	123	F	5
651.584	17.899	sharingrating1	669.584	3	132	F	5
674.967	17.901	sharingrating1	692.967	3	8	R	5
697.983	17.903	sharingrating1	715.983	3	110	R	3
720.616	17.914	sharingrating1	738.615	3	67	F	4
743.498	17.914	sharingrating1	761.514	3	49	F	3
766.698	17.908	sharingrating1	784.697	3	71	F	6
790.014	17.896	sharingrating1	808.013	3	2	R	1
814.063	17.89	sharingrating1	832.062	3	98	R	5
838.162	17.895	sharingrating1	856.162	3	130	F	5
860.861	17.891	sharingrating1	878.861	3	50	F	4
884.227	17.907	sharingrating1	902.227	3	17	R	4
906.777	17.901	sharingrating1	924.776	3	19	R	5
936.976	17.897	accuracyrating	954.975	3	38	F	3
960.108	17.898	accuracyrating	978.108	3	1	R	3
982.858	17.902	accuracyrating	1000.874	3	4	R	6
1006.674	17.89	accuracyrating	1024.673	3	32	F	2
1029.556	17.908	accuracyrating	1047.556	3	79	F	2
1052.939	17.899	accuracyrating	1070.938	3	26	R	3
1076.271	17.888	accuracyrating	1094.271	3	55	F	4
1099.171	17.897	accuracyrating	1117.17	3	96	R	6
1121.587	17.911	accuracyrating	1139.603	3	15	R	2
1145.136	17.909	accuracyrating	1163.152	3	70	F	1
1168.669	17.908	accuracyrating	1186.668	3	47	F	3
1192.301	17.899	accuracyrating	1210.301	3	25	R	4
1215.767	17.9	accuracyrating	1233.767	3	86	F	2
1238.683	17.905	accuracyrating	1256.683	3	31	F	2
1262.132	17.904	accuracyrating	1280.148	3	95	R	1
1284.648	17.907	accuracyrating	1302.648	3	64	F	2
1307.298	17.908	accuracyrating	1325.297	3	81	F	4
1329.864	17.893	accuracyrating	1347.88	3	12	R	6
1352.696	17.87	accuracyrating	1370.679	3	106	R	5
1375.946	17.884	accuracyrating	1393.928	3	9	R	2
1407.028	17.887	sharingrating2	1425.011	3	5	R	3
1430.427	17.902	sharingrating2	1448.427	3	99	R	1
1453.96	17.897	sharingrating2	1471.959	3	65	F	5
1477.142	17.893	sharingrating2	1495.125	3	10	R	3
1500.642	17.887	sharingrating2	1518.624	3	73	F	2
1523.741	17.905	sharingrating2	1541.74	3	66	F	3
1547.207	17.902	sharingrating2	1565.206	3	44	F	2
1569.956	17.899	sharingrating2	1587.956	3	88	F	4
1592.356	17.899	sharingrating2	1610.355	3	34	F	3
1615.455	17.903	sharingrating2	1633.454	3	20	R	3
1638.454	17.889	sharingrating2	1656.454	3	45	F	3
1662.387	17.899	sharingrating2	1680.386	3	69	F	2
1684.919	17.896	sharingrating2	1702.919	3	3	R	4
1707.935	17.911	sharingrating2	1725.951	3	30	R	4
1731.702	17.909	sharingrating2	1749.701	3	41	F	4
1755.051	17.906	sharingrating2	1773.05	3	39	F	3
1777.433	17.903	sharingrating2	1795.433	3	101	R	4
1799.916	17.906	sharingrating2	1817.915	3	6	R	3
1822.565	17.907	sharingrating2	1840.581	3	16	R	5
1846.031	17.898	sharingrating2	1864.031	3	14	R	3
26.137	2.181	fixations	n/a	n/a	n/a	n/a	n/a
49.453	2.016	fixations	n/a	n/a	n/a	n/a	n/a
72.586	1.751	fixations	n/a	n/a	n/a	n/a	n/a
95.468	1.469	fixations	n/a	n/a	n/a	n/a	n/a
118.067	2.5	fixations	n/a	n/a	n/a	n/a	n/a
141.7	2.086	fixations	n/a	n/a	n/a	n/a	n/a
164.916	2.748	fixations	n/a	n/a	n/a	n/a	n/a
188.799	2.722	fixations	n/a	n/a	n/a	n/a	n/a
212.648	2.006	fixations	n/a	n/a	n/a	n/a	n/a
235.781	1.87	fixations	n/a	n/a	n/a	n/a	n/a
258.78	2.359	fixations	n/a	n/a	n/a	n/a	n/a
282.262	2.766	fixations	n/a	n/a	n/a	n/a	n/a
306.162	1.434	fixations	n/a	n/a	n/a	n/a	n/a
328.728	1.471	fixations	n/a	n/a	n/a	n/a	n/a
351.327	2.396	fixations	n/a	n/a	n/a	n/a	n/a
374.86	1.419	fixations	n/a	n/a	n/a	n/a	n/a
397.409	1.838	fixations	n/a	n/a	n/a	n/a	n/a
420.375	1.419	fixations	n/a	n/a	n/a	n/a	n/a
442.924	1.829	fixations	n/a	n/a	n/a	n/a	n/a
465.89	1.528	fixations	n/a	n/a	n/a	n/a	n/a
488.556	2.053	fixations	n/a	n/a	n/a	n/a	n/a
511.739	2.099	fixations	n/a	n/a	n/a	n/a	n/a
534.971	2.606	fixations	n/a	n/a	n/a	n/a	n/a
558.704	2.049	fixations	n/a	n/a	n/a	n/a	n/a
581.87	1.175	fixations	n/a	n/a	n/a	n/a	n/a
604.186	2.241	fixations	n/a	n/a	n/a	n/a	n/a
627.552	1.405	fixations	n/a	n/a	n/a	n/a	n/a
650.085	1.398	fixations	n/a	n/a	n/a	n/a	n/a
672.617	2.251	fixations	n/a	n/a	n/a	n/a	n/a
696	1.886	fixations	n/a	n/a	n/a	n/a	n/a
719.016	1.514	fixations	n/a	n/a	n/a	n/a	n/a
741.648	1.764	fixations	n/a	n/a	n/a	n/a	n/a
764.548	2.058	fixations	n/a	n/a	n/a	n/a	n/a
787.73	2.18	fixations	n/a	n/a	n/a	n/a	n/a
811.046	2.907	fixations	n/a	n/a	n/a	n/a	n/a
835.095	2.962	fixations	n/a	n/a	n/a	n/a	n/a
859.195	1.557	fixations	n/a	n/a	n/a	n/a	n/a
881.894	2.24	fixations	n/a	n/a	n/a	n/a	n/a
905.26	1.418	fixations	n/a	n/a	n/a	n/a	n/a
927.809	1.064	fixations	n/a	n/a	n/a	n/a	n/a
958.009	1.997	fixations	n/a	n/a	n/a	n/a	n/a
981.141	1.619	fixations	n/a	n/a	n/a	n/a	n/a
1003.907	2.657	fixations	n/a	n/a	n/a	n/a	n/a
1027.706	1.758	fixations	n/a	n/a	n/a	n/a	n/a
1050.589	2.25	fixations	n/a	n/a	n/a	n/a	n/a
1073.971	2.188	fixations	n/a	n/a	n/a	n/a	n/a
1097.304	1.764	fixations	n/a	n/a	n/a	n/a	n/a
1120.203	1.295	fixations	n/a	n/a	n/a	n/a	n/a
1142.636	2.409	fixations	n/a	n/a	n/a	n/a	n/a
1166.185	2.392	fixations	n/a	n/a	n/a	n/a	n/a
1189.701	2.499	fixations	n/a	n/a	n/a	n/a	n/a
1213.334	2.333	fixations	n/a	n/a	n/a	n/a	n/a
1236.8	1.788	fixations	n/a	n/a	n/a	n/a	n/a
1259.716	2.32	fixations	n/a	n/a	n/a	n/a	n/a
1283.182	1.373	fixations	n/a	n/a	n/a	n/a	n/a
1305.681	1.525	fixations	n/a	n/a	n/a	n/a	n/a
1328.33	1.427	fixations	n/a	n/a	n/a	n/a	n/a
1350.913	1.653	fixations	n/a	n/a	n/a	n/a	n/a
1373.712	2.118	fixations	n/a	n/a	n/a	n/a	n/a
1396.962	1.953	fixations	n/a	n/a	n/a	n/a	n/a
1428.044	2.285	fixations	n/a	n/a	n/a	n/a	n/a
1451.46	2.397	fixations	n/a	n/a	n/a	n/a	n/a
1474.993	2.042	fixations	n/a	n/a	n/a	n/a	n/a
1498.159	2.37	fixations	n/a	n/a	n/a	n/a	n/a
1521.658	1.988	fixations	n/a	n/a	n/a	n/a	n/a
1544.774	2.335	fixations	n/a	n/a	n/a	n/a	n/a
1568.24	1.615	fixations	n/a	n/a	n/a	n/a	n/a
1590.989	1.266	fixations	n/a	n/a	n/a	n/a	n/a
1613.388	1.97	fixations	n/a	n/a	n/a	n/a	n/a
1636.488	1.855	fixations	n/a	n/a	n/a	n/a	n/a
1659.487	2.799	fixations	n/a	n/a	n/a	n/a	n/a
1683.419	1.396	fixations	n/a	n/a	n/a	n/a	n/a
1705.952	1.894	fixations	n/a	n/a	n/a	n/a	n/a
1728.985	2.626	fixations	n/a	n/a	n/a	n/a	n/a
1752.734	2.223	fixations	n/a	n/a	n/a	n/a	n/a
1776.083	1.253	fixations	n/a	n/a	n/a	n/a	n/a
1798.466	1.356	fixations	n/a	n/a	n/a	n/a	n/a
1820.949	1.523	fixations	n/a	n/a	n/a	n/a	n/a
1843.615	2.314	fixations	n/a	n/a	n/a	n/a	n/a
1867.064	1.804	fixations	n/a	n/a	n/a	n/a	n/a
0.038	4.961	intro&rest	n/a	n/a	n/a	n/a	n/a
928.909	2.964	intro&rest	n/a	n/a	n/a	n/a	n/a
931.909	4.964	intro&rest	n/a	n/a	n/a	n/a	n/a
1398.961	2.954	intro&rest	n/a	n/a	n/a	n/a	n/a
1401.945	4.97	intro&rest	n/a	n/a	n/a	n/a	n/a
1868.897	1.971	intro&rest	n/a	n/a	n/a	n/a	n/a
