onset	duration	trial_type	onset_response	response_time	news_no	news_real/fake	value
0.04	4.959	intro&rest	n/a	n/a	n/a	n/a	n/a
5.09	17.909	sharingrating1	23.106	3	109	R	3
26.139	2.722	fixations	n/a	n/a	n/a	n/a	n/a
28.956	17.905	sharingrating1	46.955	3	17	R	2
49.989	1.417	fixations	n/a	n/a	n/a	n/a	n/a
51.505	17.901	sharingrating1	69.505	3	97	R	1
72.538	2.086	fixations	n/a	n/a	n/a	n/a	n/a
74.705	17.919	sharingrating1	92.721	3	71	F	5
95.754	2.18	fixations	n/a	n/a	n/a	n/a	n/a
98.037	17.897	sharingrating1	116.037	3	37	F	1
119.07	2.606	fixations	n/a	n/a	n/a	n/a	n/a
121.77	17.906	sharingrating1	139.769	3	78	F	3
142.802	2.241	fixations	n/a	n/a	n/a	n/a	n/a
145.136	17.907	sharingrating1	163.135	3	7	R	3
166.168	2.766	fixations	n/a	n/a	n/a	n/a	n/a
169.035	17.899	sharingrating1	187.035	3	51	F	4
190.068	2.053	fixations	n/a	n/a	n/a	n/a	n/a
192.218	17.903	sharingrating1	210.217	3	129	F	1
213.25	2.181	fixations	n/a	n/a	n/a	n/a	n/a
215.534	17.897	sharingrating1	233.533	3	123	F	2
236.566	1.399	fixations	n/a	n/a	n/a	n/a	n/a
238.05	17.915	sharingrating1	256.049	3	23	R	1
259.082	1.175	fixations	n/a	n/a	n/a	n/a	n/a
260.349	17.908	sharingrating1	278.348	3	87	F	1
281.382	2.395	fixations	n/a	n/a	n/a	n/a	n/a
283.881	17.896	sharingrating1	301.881	3	29	R	1
304.914	2.099	fixations	n/a	n/a	n/a	n/a	n/a
307.131	17.882	sharingrating1	325.114	3	83	F	4
328.147	1.42	fixations	n/a	n/a	n/a	n/a	n/a
329.68	17.887	sharingrating1	347.663	3	68	F	1
350.696	1.472	fixations	n/a	n/a	n/a	n/a	n/a
352.279	17.889	sharingrating1	370.262	3	11	R	1
373.295	2.049	fixations	n/a	n/a	n/a	n/a	n/a
375.462	17.882	sharingrating1	393.445	3	18	R	4
396.478	1.87	fixations	n/a	n/a	n/a	n/a	n/a
398.445	17.903	sharingrating1	416.444	3	2	R	2
419.477	2.907	fixations	n/a	n/a	n/a	n/a	n/a
422.494	17.89	sharingrating1	440.477	3	19	R	5
443.51	1.064	fixations	n/a	n/a	n/a	n/a	n/a
444.677	17.897	sharingrating1	462.676	3	49	F	5
465.609	2.058	fixations	n/a	n/a	n/a	n/a	n/a
467.776	17.891	sharingrating1	485.759	3	110	R	2
488.792	1.514	fixations	n/a	n/a	n/a	n/a	n/a
490.408	17.898	sharingrating1	508.408	3	120	R	2
511.441	2.748	fixations	n/a	n/a	n/a	n/a	n/a
514.274	17.915	sharingrating1	532.274	3	122	F	1
535.307	1.752	fixations	n/a	n/a	n/a	n/a	n/a
537.157	17.902	sharingrating1	555.156	3	67	F	1
558.19	1.763	fixations	n/a	n/a	n/a	n/a	n/a
560.056	17.897	sharingrating1	578.056	3	111	R	2
581.089	1.469	fixations	n/a	n/a	n/a	n/a	n/a
582.672	17.886	sharingrating1	600.655	3	21	R	4
603.688	2.5	fixations	n/a	n/a	n/a	n/a	n/a
606.288	17.9	sharingrating1	624.288	3	42	F	3
627.321	2.016	fixations	n/a	n/a	n/a	n/a	n/a
629.454	17.883	sharingrating1	647.437	3	8	R	2
650.47	1.886	fixations	n/a	n/a	n/a	n/a	n/a
652.454	17.902	sharingrating1	670.453	3	22	R	5
673.486	1.419	fixations	n/a	n/a	n/a	n/a	n/a
675.003	17.902	sharingrating1	693.002	3	133	F	1
696.035	1.434	fixations	n/a	n/a	n/a	n/a	n/a
697.569	17.9	sharingrating1	715.568	3	117	R	4
718.602	1.837	fixations	n/a	n/a	n/a	n/a	n/a
720.535	17.904	sharingrating1	738.534	3	40	F	4
741.567	1.829	fixations	n/a	n/a	n/a	n/a	n/a
743.501	17.895	sharingrating1	761.5	3	132	F	1
764.533	2.251	fixations	n/a	n/a	n/a	n/a	n/a
766.883	17.901	sharingrating1	784.883	3	98	R	5
787.916	2.962	fixations	n/a	n/a	n/a	n/a	n/a
790.966	17.912	sharingrating1	808.965	3	13	R	3
811.998	1.405	fixations	n/a	n/a	n/a	n/a	n/a
813.498	17.905	sharingrating1	831.498	3	35	F	5
834.531	2.359	fixations	n/a	n/a	n/a	n/a	n/a
836.998	17.892	sharingrating1	854.997	3	50	F	6
858.03	2.24	fixations	n/a	n/a	n/a	n/a	n/a
860.364	17.906	sharingrating1	878.363	3	130	F	2
881.296	1.565	fixations	n/a	n/a	n/a	n/a	n/a
882.963	17.898	sharingrating1	900.963	3	93	R	2
903.996	2.006	fixations	n/a	n/a	n/a	n/a	n/a
906.096	17.906	sharingrating1	924.095	3	43	F	1
927.128	1.528	fixations	n/a	n/a	n/a	n/a	n/a
928.695	3	intro&rest	n/a	n/a	n/a	n/a	n/a
931.695	3	intro&rest	n/a	n/a	n/a	n/a	n/a
936.745	17.911	accuracyrating	954.744	3	96	R	4
957.777	1.295	fixations	n/a	n/a	n/a	n/a	n/a
959.177	17.895	accuracyrating	977.177	3	70	F	2
980.21	2.392	fixations	n/a	n/a	n/a	n/a	n/a
982.693	17.909	accuracyrating	1000.693	3	26	R	6
1003.626	2.198	fixations	n/a	n/a	n/a	n/a	n/a
1005.926	17.898	accuracyrating	1023.925	3	32	F	3
1026.959	1.757	fixations	n/a	n/a	n/a	n/a	n/a
1028.809	17.907	accuracyrating	1046.808	3	81	F	3
1049.841	1.427	fixations	n/a	n/a	n/a	n/a	n/a
1051.374	17.894	accuracyrating	1069.374	3	55	F	4
1072.407	1.764	fixations	n/a	n/a	n/a	n/a	n/a
1074.274	17.897	accuracyrating	1092.273	3	106	R	3
1095.356	2.068	fixations	n/a	n/a	n/a	n/a	n/a
1097.523	17.901	accuracyrating	1115.523	3	95	R	2
1118.556	1.374	fixations	n/a	n/a	n/a	n/a	n/a
1120.022	17.908	accuracyrating	1138.022	3	15	R	3
1141.055	2.409	fixations	n/a	n/a	n/a	n/a	n/a
1143.555	17.909	accuracyrating	1161.571	3	12	R	6
1164.604	1.653	fixations	n/a	n/a	n/a	n/a	n/a
1166.354	17.903	accuracyrating	1184.354	3	38	F	3
1187.287	2.002	fixations	n/a	n/a	n/a	n/a	n/a
1189.387	17.902	accuracyrating	1207.386	3	4	R	4
1210.419	2.657	fixations	n/a	n/a	n/a	n/a	n/a
1213.169	17.907	accuracyrating	1231.169	3	47	F	4
1234.202	2.499	fixations	n/a	n/a	n/a	n/a	n/a
1236.802	17.899	accuracyrating	1254.801	3	86	F	1
1257.835	1.787	fixations	n/a	n/a	n/a	n/a	n/a
1259.718	17.904	accuracyrating	1277.717	3	9	R	5
1280.751	1.953	fixations	n/a	n/a	n/a	n/a	n/a
1282.817	17.887	accuracyrating	1300.8	3	25	R	5
1303.733	2.338	fixations	n/a	n/a	n/a	n/a	n/a
1306.167	17.904	accuracyrating	1324.166	3	1	R	4
1327.199	1.619	fixations	n/a	n/a	n/a	n/a	n/a
1328.916	17.902	accuracyrating	1346.915	3	64	F	3
1349.949	1.524	fixations	n/a	n/a	n/a	n/a	n/a
1351.565	17.908	accuracyrating	1369.565	3	79	F	3
1372.598	2.249	fixations	n/a	n/a	n/a	n/a	n/a
1374.948	17.899	accuracyrating	1392.947	3	31	F	5
1395.881	2.32	fixations	n/a	n/a	n/a	n/a	n/a
1398.23	3	intro&rest	n/a	n/a	n/a	n/a	n/a
1401.23	5	intro&rest	n/a	n/a	n/a	n/a	n/a
1406.297	17.904	sharingrating2	1424.296	3	88	F	4
1427.329	1.266	fixations	n/a	n/a	n/a	n/a	n/a
1428.68	17.915	sharingrating2	1446.696	3	30	R	2
1449.729	2.627	fixations	n/a	n/a	n/a	n/a	n/a
1452.445	17.911	sharingrating2	1470.445	3	34	F	2
1473.478	1.97	fixations	n/a	n/a	n/a	n/a	n/a
1475.528	17.92	sharingrating2	1493.544	3	44	F	1
1496.577	1.616	fixations	n/a	n/a	n/a	n/a	n/a
1498.294	17.899	sharingrating2	1516.293	3	41	F	1
1519.327	2.222	fixations	n/a	n/a	n/a	n/a	n/a
1521.643	17.906	sharingrating2	1539.659	3	45	F	6
1542.693	2.798	fixations	n/a	n/a	n/a	n/a	n/a
1545.592	17.899	sharingrating2	1563.592	3	65	F	5
1566.625	2.043	fixations	n/a	n/a	n/a	n/a	n/a
1568.758	17.91	sharingrating2	1586.775	3	99	R	1
1589.808	2.397	fixations	n/a	n/a	n/a	n/a	n/a
1592.291	17.914	sharingrating2	1610.307	3	6	R	1
1613.341	1.523	fixations	n/a	n/a	n/a	n/a	n/a
1614.957	17.907	sharingrating2	1632.973	3	14	R	1
1636.006	1.804	fixations	n/a	n/a	n/a	n/a	n/a
1637.906	17.904	sharingrating2	1655.906	3	73	F	2
1658.939	1.989	fixations	n/a	n/a	n/a	n/a	n/a
1661.022	17.906	sharingrating2	1679.022	3	3	R	1
1682.055	1.894	fixations	n/a	n/a	n/a	n/a	n/a
1684.038	17.911	sharingrating2	1702.054	3	69	F	6
1705.088	1.395	fixations	n/a	n/a	n/a	n/a	n/a
1706.588	17.895	sharingrating2	1724.587	3	39	F	1
1727.62	1.253	fixations	n/a	n/a	n/a	n/a	n/a
1728.97	17.903	sharingrating2	1746.97	3	101	R	1
1750.003	1.356	fixations	n/a	n/a	n/a	n/a	n/a
1751.453	17.906	sharingrating2	1769.452	3	20	R	1
1772.486	1.855	fixations	n/a	n/a	n/a	n/a	n/a
1774.436	17.905	sharingrating2	1792.452	3	66	F	2
1795.485	2.336	fixations	n/a	n/a	n/a	n/a	n/a
1797.935	17.886	sharingrating2	1815.918	3	16	R	1
1818.951	2.315	fixations	n/a	n/a	n/a	n/a	n/a
1821.384	17.882	sharingrating2	1839.367	3	10	R	1
1842.4	2.371	fixations	n/a	n/a	n/a	n/a	n/a
1844.883	17.888	sharingrating2	1862.866	3	5	R	4
1865.899	2.285	fixations	n/a	n/a	n/a	n/a	n/a
1868.216	1.968	intro&rest	n/a	n/a	n/a	n/a	n/a
