onset	duration	trial_type	onset_response	response_time	news_no	news_real/fake	value
5.092	17.907	sharingrating1	23.091	3	132	F	3
28.458	17.917	sharingrating1	46.457	3	23	R	2
50.774	17.891	sharingrating1	68.773	3	22	R	3
73.323	17.902	sharingrating1	91.323	3	129	F	3
96.623	17.914	sharingrating1	114.639	3	71	F	2
119.955	17.897	sharingrating1	137.954	3	7	R	2
143.854	17.899	sharingrating1	161.854	3	51	F	1
167.037	17.903	sharingrating1	185.036	3	111	R	3
189.636	17.902	sharingrating1	207.636	3	21	R	2
213.252	17.917	sharingrating1	231.252	3	122	F	3
236.051	17.904	sharingrating1	254.051	3	117	R	3
259.017	17.905	sharingrating1	277.017	3	120	R	3
282.9	17.898	sharingrating1	300.9	3	110	R	2
305.549	17.898	sharingrating1	323.549	3	18	R	1
328.549	17.903	sharingrating1	346.565	3	50	F	1
351.931	17.907	sharingrating1	369.931	3	83	F	2
374.481	17.903	sharingrating1	392.48	3	13	R	2
397.013	17.905	sharingrating1	415.013	3	42	F	1
420.163	17.899	sharingrating1	438.162	3	2	R	3
444.229	17.873	sharingrating1	462.195	3	43	F	1
466.861	17.895	sharingrating1	484.861	3	93	R	3
490.01	17.89	sharingrating1	507.993	3	97	R	3
513.226	17.886	sharingrating1	531.209	3	8	R	3
536.159	17.873	sharingrating1	554.142	3	98	R	2
560.242	17.895	sharingrating1	578.224	3	37	F	2
583.974	17.889	sharingrating1	601.957	3	68	F	1
606.474	17.895	sharingrating1	624.473	3	11	R	4
629.656	17.899	sharingrating1	647.656	3	133	F	2
652.122	17.901	sharingrating1	670.122	3	17	R	3
674.671	17.902	sharingrating1	692.671	3	123	F	3
697.204	17.899	sharingrating1	715.204	3	29	R	3
720.437	17.899	sharingrating1	738.436	3	49	F	1
743.619	17.909	sharingrating1	761.619	3	87	F	2
767.152	17.896	sharingrating1	785.151	3	130	F	3
789.851	17.89	sharingrating1	807.851	3	19	R	2
812.051	17.897	sharingrating1	830.05	3	35	F	1
835.55	17.892	sharingrating1	853.549	3	109	R	3
859.299	17.899	sharingrating1	877.299	3	40	F	2
882.265	17.896	sharingrating1	900.265	3	78	F	3
905.531	17.905	sharingrating1	923.53	3	67	F	2
936.43	17.897	accuracyrating	954.43	3	26	R	4
959.746	17.905	accuracyrating	977.746	3	25	R	4
983.212	17.9	accuracyrating	1001.211	3	1	R	2
1005.861	17.904	accuracyrating	1023.861	3	96	R	3
1028.194	17.9	accuracyrating	1046.193	3	79	F	2
1051.593	17.882	accuracyrating	1069.576	3	95	R	4
1074.093	17.89	accuracyrating	1092.092	3	32	F	1
1096.875	17.9	accuracyrating	1114.875	3	64	F	1
1119.541	17.892	accuracyrating	1137.541	3	70	F	3
1143.058	17.908	accuracyrating	1161.057	3	38	F	2
1166.19	17.898	accuracyrating	1184.189	3	31	F	5
1189.639	17.903	accuracyrating	1207.639	3	9	R	3
1212.738	17.888	accuracyrating	1230.738	3	106	R	4
1235.988	17.901	accuracyrating	1253.987	3	81	F	3
1258.454	17.896	accuracyrating	1276.453	3	12	R	5
1281.136	17.901	accuracyrating	1299.136	3	47	F	3
1304.769	17.899	accuracyrating	1322.768	3	15	R	3
1328.301	17.909	accuracyrating	1346.319	3	86	F	4
1351.251	17.889	accuracyrating	1369.25	3	4	R	3
1375.05	17.89	accuracyrating	1393.049	3	55	F	2
1405.933	17.913	sharingrating2	1423.949	3	20	R	3
1428.932	17.906	sharingrating2	1446.931	3	69	F	3
1451.364	17.904	sharingrating2	1469.364	3	10	R	2
1474.764	17.909	sharingrating2	1492.78	3	45	F	3
1498.613	17.893	sharingrating2	1516.612	3	14	R	2
1521.546	17.903	sharingrating2	1539.545	3	65	F	3
1544.712	17.909	sharingrating2	1562.711	3	44	F	1
1567.461	17.899	sharingrating2	1585.46	3	99	R	2
1590.993	17.897	sharingrating2	1608.993	3	5	R	3
1614.393	17.918	sharingrating2	1632.409	3	6	R	3
1637.059	17.907	sharingrating2	1655.058	3	30	R	1
1660.825	17.893	sharingrating2	1678.824	3	16	R	3
1684.174	17.893	sharingrating2	1702.173	3	73	F	3
1707.29	17.905	sharingrating2	1725.289	3	39	F	1
1729.656	17.919	sharingrating2	1747.672	3	66	F	1
1753.138	17.903	sharingrating2	1771.138	3	101	R	3
1775.621	17.906	sharingrating2	1793.621	3	88	F	2
1798.02	17.9	sharingrating2	1816.02	3	3	R	3
1821.036	17.911	sharingrating2	1839.036	3	34	F	2
1844.136	17.903	sharingrating2	1862.135	3	41	F	3
26.125	2.25	fixations	n/a	n/a	n/a	n/a	n/a
49.49	1.175	fixations	n/a	n/a	n/a	n/a	n/a
71.806	1.419	fixations	n/a	n/a	n/a	n/a	n/a
94.356	2.181	fixations	n/a	n/a	n/a	n/a	n/a
117.672	2.18	fixations	n/a	n/a	n/a	n/a	n/a
140.988	2.765	fixations	n/a	n/a	n/a	n/a	n/a
164.887	2.053	fixations	n/a	n/a	n/a	n/a	n/a
188.07	1.468	fixations	n/a	n/a	n/a	n/a	n/a
210.669	2.5	fixations	n/a	n/a	n/a	n/a	n/a
234.202	1.753	fixations	n/a	n/a	n/a	n/a	n/a
257.084	1.838	fixations	n/a	n/a	n/a	n/a	n/a
280.05	2.748	fixations	n/a	n/a	n/a	n/a	n/a
303.933	1.514	fixations	n/a	n/a	n/a	n/a	n/a
326.582	1.87	fixations	n/a	n/a	n/a	n/a	n/a
349.598	2.24	fixations	n/a	n/a	n/a	n/a	n/a
372.964	1.42	fixations	n/a	n/a	n/a	n/a	n/a
395.513	1.405	fixations	n/a	n/a	n/a	n/a	n/a
418.046	2.016	fixations	n/a	n/a	n/a	n/a	n/a
441.195	2.907	fixations	n/a	n/a	n/a	n/a	n/a
465.228	1.528	fixations	n/a	n/a	n/a	n/a	n/a
487.894	2.006	fixations	n/a	n/a	n/a	n/a	n/a
511.026	2.086	fixations	n/a	n/a	n/a	n/a	n/a
534.142	1.89	fixations	n/a	n/a	n/a	n/a	n/a
557.175	2.962	fixations	n/a	n/a	n/a	n/a	n/a
581.258	2.605	fixations	n/a	n/a	n/a	n/a	n/a
604.89	1.479	fixations	n/a	n/a	n/a	n/a	n/a
627.506	2.049	fixations	n/a	n/a	n/a	n/a	n/a
650.589	1.434	fixations	n/a	n/a	n/a	n/a	n/a
673.155	1.418	fixations	n/a	n/a	n/a	n/a	n/a
695.704	1.399	fixations	n/a	n/a	n/a	n/a	n/a
718.237	2.099	fixations	n/a	n/a	n/a	n/a	n/a
741.469	2.059	fixations	n/a	n/a	n/a	n/a	n/a
764.652	2.396	fixations	n/a	n/a	n/a	n/a	n/a
788.185	1.556	fixations	n/a	n/a	n/a	n/a	n/a
810.884	1.064	fixations	n/a	n/a	n/a	n/a	n/a
833.083	2.359	fixations	n/a	n/a	n/a	n/a	n/a
856.466	2.732	fixations	n/a	n/a	n/a	n/a	n/a
880.332	1.829	fixations	n/a	n/a	n/a	n/a	n/a
903.198	2.238	fixations	n/a	n/a	n/a	n/a	n/a
926.564	1.763	fixations	n/a	n/a	n/a	n/a	n/a
957.463	2.188	fixations	n/a	n/a	n/a	n/a	n/a
980.779	2.333	fixations	n/a	n/a	n/a	n/a	n/a
1004.145	1.62	fixations	n/a	n/a	n/a	n/a	n/a
1026.794	1.3	fixations	n/a	n/a	n/a	n/a	n/a
1049.227	2.248	fixations	n/a	n/a	n/a	n/a	n/a
1072.609	1.374	fixations	n/a	n/a	n/a	n/a	n/a
1095.009	1.766	fixations	n/a	n/a	n/a	n/a	n/a
1117.908	1.525	fixations	n/a	n/a	n/a	n/a	n/a
1140.574	2.392	fixations	n/a	n/a	n/a	n/a	n/a
1164.09	1.998	fixations	n/a	n/a	n/a	n/a	n/a
1187.222	2.32	fixations	n/a	n/a	n/a	n/a	n/a
1210.672	1.954	fixations	n/a	n/a	n/a	n/a	n/a
1233.771	2.118	fixations	n/a	n/a	n/a	n/a	n/a
1256.92	1.43	fixations	n/a	n/a	n/a	n/a	n/a
1279.386	1.651	fixations	n/a	n/a	n/a	n/a	n/a
1302.169	2.499	fixations	n/a	n/a	n/a	n/a	n/a
1325.802	2.408	fixations	n/a	n/a	n/a	n/a	n/a
1349.351	1.789	fixations	n/a	n/a	n/a	n/a	n/a
1372.284	2.656	fixations	n/a	n/a	n/a	n/a	n/a
1396.083	1.763	fixations	n/a	n/a	n/a	n/a	n/a
1426.982	1.856	fixations	n/a	n/a	n/a	n/a	n/a
1449.865	1.403	fixations	n/a	n/a	n/a	n/a	n/a
1472.297	2.376	fixations	n/a	n/a	n/a	n/a	n/a
1495.696	2.81	fixations	n/a	n/a	n/a	n/a	n/a
1519.646	1.803	fixations	n/a	n/a	n/a	n/a	n/a
1542.578	2.043	fixations	n/a	n/a	n/a	n/a	n/a
1565.744	1.616	fixations	n/a	n/a	n/a	n/a	n/a
1588.494	2.396	fixations	n/a	n/a	n/a	n/a	n/a
1612.026	2.285	fixations	n/a	n/a	n/a	n/a	n/a
1635.442	1.524	fixations	n/a	n/a	n/a	n/a	n/a
1658.091	2.627	fixations	n/a	n/a	n/a	n/a	n/a
1681.741	2.326	fixations	n/a	n/a	n/a	n/a	n/a
1705.207	1.988	fixations	n/a	n/a	n/a	n/a	n/a
1728.323	1.252	fixations	n/a	n/a	n/a	n/a	n/a
1750.705	2.336	fixations	n/a	n/a	n/a	n/a	n/a
1774.171	1.356	fixations	n/a	n/a	n/a	n/a	n/a
1796.654	1.266	fixations	n/a	n/a	n/a	n/a	n/a
1819.053	1.894	fixations	n/a	n/a	n/a	n/a	n/a
1842.069	1.97	fixations	n/a	n/a	n/a	n/a	n/a
1865.168	2.223	fixations	n/a	n/a	n/a	n/a	n/a
0.025	4.974	intro&rest	n/a	n/a	n/a	n/a	n/a
928.364	3	intro&rest	n/a	n/a	n/a	n/a	n/a
931.364	5	intro&rest	n/a	n/a	n/a	n/a	n/a
1397.883	3	intro&rest	n/a	n/a	n/a	n/a	n/a
1400.883	5	intro&rest	n/a	n/a	n/a	n/a	n/a
1867.418	2	intro&rest	n/a	n/a	n/a	n/a	n/a
